Folder: MSB_BMELab/114-CorticalBoneElasticity/Group3/01_Raman/data

Note: README.md
# MSB_BMELab
Repository used for the BME labs of the musculo-skeletal biomechanics group

File: Polystyrene.csv
AP Cora 5001
Software_Version;1.4.1
[SAMPLE]
Sample_Name;Polystyrene
Method;
[PARAMETERS]
Instrument_Type;Cora 5001
Instrument_SN;99119713
Last_SST;4/23/2024 1:36:37 PM +00:00
User_Name;labmanager
Measurement_Started;4/25/2024 1:40:45 PM
Measurement_Finished;4/25/2024 1:41:04 PM
Measurement_Saved;4/25/2024 1:41:04 PM
Wavelength;785
Laser_Power;10
Auto_Exposure;False
Exposure_Time;3000
Averaged_Spectra;3
Probe_Type;Regular Probe (785 nm)
Probe_SN;99101107
Dark_Background;True
User_Background_Spectrum;
Spike_Removal;True
Baseline_Correction;False
Smoothing;False
Normalization;None
[SPECTRUM QUALITY]
Quality_Saturation;False
Quality_SBR;NaN
Quality_Temperature;False
[SPECTRUM]
100.00;876.72
108.00;964.04
116.00;977.96
124.00;932.48
132.00;848.24
140.00;741.76
148.00;648.00
156.00;570.60
164.00;509.94
172.00;461.91
180.00;419.72
188.00;389.87
196.00;375.89
204.00;363.91
212.00;376.75
220.00;372.38
228.00;353.10
236.00;298.99
244.00;236.22
252.00;183.06
260.00;141.87
268.00;114.27
276.00;92.29
284.00;84.61
292.00;72.69
300.00;64.68
308.00;58.52
316.00;56.64
324.00;56.32
332.00;55.44
340.00;54.49
348.00;51.06
356.00;54.06
364.00;49.74
372.00;55.56
380.00;59.36
388.00;70.06
396.00;79.35
404.00;88.20
412.00;88.33
420.00;79.48
428.00;65.37
436.00;57.04
444.00;51.24
452.00;42.59
460.00;36.96
468.00;32.04
476.00;27.69
484.00;27.27
492.00;25.58
500.00;23.68
508.00;27.70
516.00;27.71
524.00;34.45
532.00;42.74
540.00;48.95
548.00;49.57
556.00;47.09
564.00;47.81
572.00;43.59
580.00;37.88
588.00;38.78
596.00;36.98
604.00;42.66
612.00;76.39
620.00;234.58
628.00;121.28
636.00;65.78
644.00;41.20
652.00;26.71
660.00;21.85
668.00;21.78
676.00;21.37
684.00;20.80
692.00;19.57
700.00;30.46
708.00;36.20
716.00;33.83
724.00;35.63
732.00;47.40
740.00;81.40
748.00;110.20
756.00;135.67
764.00;135.66
772.00;125.26
780.00;136.25
788.00;199.59
796.00;241.50
804.00;175.42
812.00;113.42
820.00;72.25
828.00;60.13
836.00;74.33
844.00;82.03
852.00;63.36
860.00;63.53
868.00;59.90
876.00;60.07
884.00;59.38
892.00;62.38
900.00;76.74
908.00;77.59
916.00;56.39
924.00;47.85
932.00;41.99
940.00;49.53
948.00;54.23
956.00;60.26
964.00;78.62
972.00;92.39
980.00;140.18
988.00;294.28
996.00;1053.06
1004.00;1740.99
1012.00;326.80
1020.00;212.29
1028.00;518.22
1036.00;457.73
1044.00;187.13
1052.00;130.35
1060.00;122.94
1068.00;136.17
1076.00;130.69
1084.00;118.43
1092.00;113.55
1100.00;107.26
1108.00;80.17
1116.00;58.53
1124.00;44.77
1132.00;40.35
1140.00;64.53
1148.00;138.45
1156.00;264.98
1164.00;172.93
1172.00;189.64
1180.00;354.51
1188.00;351.03
1196.00;375.48
1204.00;341.91
1212.00;214.58
1220.00;146.83
1228.00;131.03
1236.00;104.23
1244.00;81.97
1252.00;69.92
1260.00;65.91
1268.00;62.15
1276.00;63.25
1284.00;66.70
1292.00;79.49
1300.00;94.49
1308.00;106.37
1316.00;123.88
1324.00;145.20
1332.00;138.54
1340.00;110.75
1348.00;88.36
1356.00;81.35
1364.00;74.76
1372.00;71.22
1380.00;56.35
1388.00;37.85
1396.00;31.93
1404.00;37.99
1412.00;38.43
1420.00;34.28
1428.00;37.45
1436.00;76.89
1444.00;140.28
1452.00;162.45
1460.00;77.67
1468.00;36.83
1476.00;29.46
1484.00;26.80
1492.00;29.80
1500.00;26.63
1508.00;21.57
1516.00;22.29
1524.00;24.69
1532.00;20.23
1540.00;25.97
1548.00;30.28
1556.00;30.80
1564.00;45.26
1572.00;70.90
1580.00;195.01
1588.00;211.61
1596.00;287.00
1604.00;526.65
1612.00;233.54
1620.00;103.78
1628.00;99.50
1636.00;67.38
1644.00;39.36
1652.00;27.32
1660.00;23.03
1668.00;22.52
1676.00;26.21
1684.00;25.74
1692.00;19.34
1700.00;24.85
1708.00;12.18
1716.00;17.43
1724.00;13.48
1732.00;15.65
1740.00;13.06
1748.00;13.84
1756.00;16.98
1764.00;17.14
1772.00;14.15
1780.00;11.16
1788.00;14.05
1796.00;16.74
1804.00;13.60
1812.00;17.53
1820.00;9.10
1828.00;13.53
1836.00;17.96
1844.00;8.91
1852.00;13.39
1860.00;16.73
1868.00;12.87
1876.00;13.30
1884.00;3.33
1892.00;12.79
1900.00;14.73
1908.00;16.00
1916.00;13.32
1924.00;10.31
1932.00;15.54
1940.00;8.85
1948.00;15.04
1956.00;16.10
1964.00;10.22
1972.00;14.16
1980.00;11.12
1988.00;17.51
1996.00;5.36
2004.00;13.93
2012.00;7.41
2020.00;11.86
2028.00;12.43
2036.00;9.31
2044.00;11.33
2052.00;12.38
2060.00;17.01
2068.00;17.31
2076.00;23.47
2084.00;23.71
2092.00;19.96
2100.00;17.82
2108.00;14.32
2116.00;12.32
2124.00;12.29
2132.00;13.45
2140.00;11.60
2148.00;21.69
2156.00;22.68
2164.00;23.16
2172.00;1.54
2180.00;20.14
2188.00;21.23
2196.00;10.76
2204.00;27.69
2212.00;27.15
2220.00;24.53
2228.00;18.42
2236.00;11.05
2244.00;27.20
2252.00;21.92
2260.00;17.15
2268.00;7.28
2276.00;19.35
2284.00;16.42
2292.00;20.48
2300.00;29.40
[ANALYSIS RESULT]
Analysis_Type;None