Folder: MSB_BMELab/114-CorticalBoneElasticity/Group2/01_Raman/data

Note: README.md
# MSB_BMELab
Repository used for the BME labs of the musculo-skeletal biomechanics group

File: pmma.csv
AP Cora 5001
Software_Version;1.4.1
[SAMPLE]
Sample_Name;pmma
Method;
[PARAMETERS]
Instrument_Type;Cora 5001
Instrument_SN;99119713
Last_SST;3/28/2024 12:19:13 PM +00:00
User_Name;labmanager
Measurement_Started;3/28/2024 3:01:18 PM
Measurement_Finished;3/28/2024 3:01:39 PM
Measurement_Saved;3/28/2024 3:01:39 PM
Wavelength;785
Laser_Power;50
Auto_Exposure;False
Exposure_Time;10000
Averaged_Spectra;1
Probe_Type;Regular Probe (785 nm)
Probe_SN;99101107
Dark_Background;True
User_Background_Spectrum;
Spike_Removal;False
Baseline_Correction;True
Smoothing;False
Normalization;None
[SPECTRUM QUALITY]
Quality_Saturation;False
Quality_SBR;0.56
Quality_Temperature;False
[SPECTRUM]
100.00;8608.68
108.00;7136.54
116.00;5213.16
124.00;3400.10
132.00;2014.34
140.00;1109.55
148.00;590.14
156.00;317.36
164.00;158.42
172.00;92.00
180.00;48.75
188.00;19.99
196.00;5.66
204.00;4.87
212.00;-6.42
220.00;-0.84
228.00;-5.42
236.00;2.22
244.00;-3.10
252.00;-9.92
260.00;-12.89
268.00;-5.68
276.00;1.62
284.00;17.04
292.00;26.35
300.00;32.20
308.00;25.27
316.00;2.90
324.00;-4.09
332.00;-1.04
340.00;9.53
348.00;32.08
356.00;63.23
364.00;91.92
372.00;95.47
380.00;72.62
388.00;52.45
396.00;34.98
404.00;12.62
412.00;-1.54
420.00;-4.92
428.00;-12.19
436.00;-7.06
444.00;-7.13
452.00;-7.69
460.00;14.18
468.00;29.86
476.00;62.70
484.00;87.66
492.00;74.31
500.00;47.11
508.00;24.48
516.00;8.09
524.00;2.14
532.00;-7.50
540.00;4.61
548.00;24.03
556.00;41.41
564.00;51.15
572.00;57.13
580.00;85.89
588.00;164.83
596.00;291.35
604.00;307.42
612.00;174.47
620.00;102.74
628.00;54.17
636.00;33.32
644.00;18.36
652.00;10.54
660.00;8.05
668.00;-0.03
676.00;-0.73
684.00;-8.56
692.00;-13.57
700.00;-9.24
708.00;-14.85
716.00;-8.04
724.00;-1.27
732.00;14.33
740.00;6.22
748.00;-5.57
756.00;1.05
764.00;12.20
772.00;23.39
780.00;27.54
788.00;46.87
796.00;92.08
804.00;297.42
812.00;785.62
820.00;258.69
828.00;51.89
836.00;23.58
844.00;28.94
852.00;4.14
860.00;-9.79
868.00;-4.96
876.00;5.28
884.00;1.16
892.00;-1.04
900.00;13.06
908.00;38.05
916.00;39.33
924.00;29.02
932.00;35.24
940.00;53.12
948.00;88.22
956.00;173.24
964.00;268.30
972.00;268.78
980.00;268.73
988.00;293.97
996.00;277.05
1004.00;200.02
1012.00;13.31
1020.00;5.04
1028.00;-11.93
1036.00;-15.73
1044.00;-20.46
1052.00;-9.90
1060.00;14.73
1068.00;16.12
1076.00;1.21
1084.00;3.97
1092.00;8.48
1100.00;28.59
1108.00;57.97
1116.00;94.73
1124.00;110.11
1132.00;77.23
1140.00;58.06
1148.00;68.47
1156.00;105.21
1164.00;96.68
1172.00;100.35
1180.00;129.48
1188.00;123.74
1196.00;101.14
1204.00;85.77
1212.00;66.72
1220.00;54.36
1228.00;59.06
1236.00;85.79
1244.00;77.41
1252.00;54.12
1260.00;16.84
1268.00;12.66
1276.00;1.70
1284.00;-11.02
1292.00;-14.80
1300.00;-3.25
1308.00;13.34
1316.00;14.75
1324.00;27.17
1332.00;22.72
1340.00;0.02
1348.00;-9.87
1356.00;-11.93
1364.00;-7.07
1372.00;-9.35
1380.00;8.28
1388.00;27.51
1396.00;19.73
1404.00;10.78
1412.00;5.51
1420.00;38.16
1428.00;117.14
1436.00;241.26
1444.00;405.42
1452.00;480.38
1460.00;412.81
1468.00;271.37
1476.00;173.75
1484.00;153.23
1492.00;99.41
1500.00;40.05
1508.00;9.77
1516.00;5.66
1524.00;-0.23
1532.00;-11.96
1540.00;-7.02
1548.00;-6.41
1556.00;-1.07
1564.00;-2.88
1572.00;-3.84
1580.00;-3.01
1588.00;13.02
1596.00;51.36
1604.00;70.70
1612.00;18.98
1620.00;8.04
1628.00;3.92
1636.00;4.57
1644.00;7.80
1652.00;-11.01
1660.00;-2.43
1668.00;-16.79
1676.00;-6.20
1684.00;1.38
1692.00;7.73
1700.00;15.81
1708.00;28.50
1716.00;117.26
1724.00;231.09
1732.00;214.22
1740.00;170.80
1748.00;70.41
1756.00;24.93
1764.00;2.42
1772.00;4.42
1780.00;1.60
1788.00;10.69
1796.00;-1.77
1804.00;4.40
1812.00;-2.21
1820.00;-6.34
1828.00;1.92
1836.00;-5.37
1844.00;-1.58
1852.00;6.82
1860.00;4.27
1868.00;-1.04
1876.00;1.16
1884.00;0.13
1892.00;-9.84
1900.00;-9.63
1908.00;-5.95
1916.00;-1.03
1924.00;12.63
1932.00;-1.51
1940.00;13.50
1948.00;7.98
1956.00;17.10
1964.00;-0.31
1972.00;-7.21
1980.00;-3.51
1988.00;-3.05
1996.00;-6.20
2004.00;-4.89
2012.00;-4.17
2020.00;6.10
2028.00;6.18
2036.00;-4.47
2044.00;-13.16
2052.00;5.83
2060.00;-1.76
2068.00;-4.49
2076.00;5.29
2084.00;-2.94
2092.00;5.85
2100.00;-6.96
2108.00;16.71
2116.00;0.22
2124.00;-3.83
2132.00;-14.72
2140.00;15.13
2148.00;6.78
2156.00;9.94
2164.00;-18.90
2172.00;4.41
2180.00;6.02
2188.00;5.35
2196.00;-13.19
2204.00;11.24
2212.00;-8.36
2220.00;8.30
2228.00;9.84
2236.00;-4.09
2244.00;-16.99
2252.00;10.71
2260.00;8.28
2268.00;-7.18
2276.00;-21.18
2284.00;-2.53
2292.00;5.08
2300.00;25.14
[ANALYSIS RESULT]
Analysis_Type;None

File: Polystyrene.csv
AP Cora 5001
Software_Version;1.4.1
[SAMPLE]
Sample_Name;Polystyrene
Method;
[PARAMETERS]
Instrument_Type;Cora 5001
Instrument_SN;99119713
Last_SST;3/28/2024 12:19:13 PM +00:00
User_Name;labmanager
Measurement_Started;3/28/2024 2:46:59 PM
Measurement_Finished;3/28/2024 2:47:10 PM
Measurement_Saved;3/28/2024 2:47:10 PM
Wavelength;785
Laser_Power;10
Auto_Exposure;False
Exposure_Time;5000
Averaged_Spectra;1
Probe_Type;Regular Probe (785 nm)
Probe_SN;99101107
Dark_Background;True
User_Background_Spectrum;
Spike_Removal;False
Baseline_Correction;True
Smoothing;False
Normalization;None
[SPECTRUM QUALITY]
Quality_Saturation;False
Quality_SBR;0.33
Quality_Temperature;False
[SPECTRUM]
100.00;1729.00
108.00;1866.63
116.00;1850.95
124.00;1725.88
132.00;1525.32
140.00;1295.80
148.00;1106.67
156.00;937.94
164.00;824.17
172.00;732.10
180.00;653.78
188.00;594.39
196.00;570.92
204.00;567.55
212.00;581.21
220.00;585.71
228.00;533.01
236.00;434.57
244.00;318.69
252.00;213.88
260.00;137.89
268.00;88.22
276.00;50.96
284.00;27.52
292.00;14.67
300.00;1.19
308.00;-3.71
316.00;-4.49
324.00;-8.43
332.00;-5.67
340.00;-2.97
348.00;-0.77
356.00;2.82
364.00;2.90
372.00;9.79
380.00;26.76
388.00;49.70
396.00;70.21
404.00;91.04
412.00;92.38
420.00;74.31
428.00;54.02
436.00;40.57
444.00;26.42
452.00;13.57
460.00;2.29
468.00;-4.59
476.00;-5.06
484.00;-11.99
492.00;-6.92
500.00;-6.29
508.00;-7.19
516.00;-7.11
524.00;8.97
532.00;17.79
540.00;31.14
548.00;33.14
556.00;28.07
564.00;15.71
572.00;17.86
580.00;4.75
588.00;8.54
596.00;7.61
604.00;18.43
612.00;86.59
620.00;415.01
628.00;183.92
636.00;75.12
644.00;21.04
652.00;2.01
660.00;-7.50
668.00;-9.27
676.00;-12.30
684.00;-13.05
692.00;-8.30
700.00;3.99
708.00;10.23
716.00;2.47
724.00;-2.16
732.00;20.55
740.00;87.31
748.00;132.65
756.00;185.04
764.00;186.90
772.00;157.22
780.00;178.13
788.00;294.02
796.00;367.33
804.00;234.54
812.00;115.39
820.00;28.68
828.00;5.26
836.00;29.51
844.00;38.46
852.00;6.91
860.00;3.19
868.00;0.40
876.00;-0.73
884.00;-0.03
892.00;6.86
900.00;41.88
908.00;46.91
916.00;2.82
924.00;-14.19
932.00;-17.41
940.00;-5.05
948.00;6.31
956.00;17.60
964.00;60.42
972.00;88.44
980.00;198.02
988.00;500.15
996.00;1985.72
1004.00;3325.80
1012.00;533.82
1020.00;340.10
1028.00;944.07
1036.00;819.49
1044.00;276.33
1052.00;170.32
1060.00;160.80
1068.00;183.63
1076.00;170.99
1084.00;146.55
1092.00;146.47
1100.00;123.90
1108.00;60.88
1116.00;17.80
1124.00;-14.30
1132.00;-7.32
1140.00;28.62
1148.00;188.99
1156.00;402.89
1164.00;224.45
1172.00;275.68
1180.00;599.88
1188.00;584.11
1196.00;626.50
1204.00;567.85
1212.00;294.66
1220.00;171.56
1228.00;129.55
1236.00;73.14
1244.00;38.80
1252.00;22.40
1260.00;9.01
1268.00;-4.27
1276.00;-5.77
1284.00;12.04
1292.00;37.85
1300.00;73.19
1308.00;99.09
1316.00;129.69
1324.00;181.34
1332.00;166.82
1340.00;110.01
1348.00;66.71
1356.00;65.66
1364.00;60.52
1372.00;57.92
1380.00;22.01
1388.00;-9.74
1396.00;-9.98
1404.00;-2.23
1412.00;-1.58
1420.00;-0.47
1428.00;12.82
1436.00;85.40
1444.00;223.98
1452.00;262.29
1460.00;99.21
1468.00;12.36
1476.00;3.65
1484.00;-6.76
1492.00;9.58
1500.00;0.85
1508.00;-6.88
1516.00;-8.11
1524.00;-5.43
1532.00;-2.54
1540.00;-6.74
1548.00;3.28
1556.00;11.85
1564.00;37.07
1572.00;96.20
1580.00;361.52
1588.00;371.49
1596.00;566.42
1604.00;1009.48
1612.00;401.22
1620.00;149.33
1628.00;139.45
1636.00;87.96
1644.00;14.79
1652.00;11.29
1660.00;0.89
1668.00;3.76
1676.00;-3.44
1684.00;-5.48
1692.00;-3.23
1700.00;-1.32
1708.00;-3.20
1716.00;-1.46
1724.00;-5.89
1732.00;-9.73
1740.00;2.94
1748.00;-3.15
1756.00;-0.44
1764.00;1.78
1772.00;6.34
1780.00;-6.32
1788.00;-3.92
1796.00;-8.50
1804.00;2.15
1812.00;-2.90
1820.00;-0.77
1828.00;1.76
1836.00;-3.68
1844.00;3.15
1852.00;-4.46
1860.00;-5.75
1868.00;-1.97
1876.00;7.85
1884.00;-1.90
1892.00;-5.03
1900.00;5.12
1908.00;4.13
1916.00;1.67
1924.00;6.74
1932.00;14.02
1940.00;5.43
1948.00;-9.49
1956.00;-2.90
1964.00;3.02
1972.00;3.32
1980.00;-0.60
1988.00;5.38
1996.00;4.37
2004.00;-19.22
2012.00;6.61
2020.00;8.53
2028.00;-18.09
2036.00;-0.21
2044.00;-7.97
2052.00;-17.99
2060.00;-0.40
2068.00;-9.58
2076.00;3.41
2084.00;-11.66
2092.00;-9.72
2100.00;0.23
2108.00;8.21
2116.00;-1.14
2124.00;-1.45
2132.00;3.27
2140.00;12.30
2148.00;2.48
2156.00;1.19
2164.00;-4.88
2172.00;6.88
2180.00;15.26
2188.00;-11.33
2196.00;28.51
2204.00;-27.04
2212.00;-8.67
2220.00;-5.68
2228.00;-6.67
2236.00;18.41
2244.00;9.60
2252.00;-16.79
2260.00;-7.65
2268.00;5.06
2276.00;23.58
2284.00;23.50
2292.00;-6.12
2300.00;-4.01
[ANALYSIS RESULT]
Analysis_Type;None

File: rubber.csv
AP Cora 5001
Software_Version;1.4.1
[SAMPLE]
Sample_Name;rubber
Method;
[PARAMETERS]
Instrument_Type;Cora 5001
Instrument_SN;99119713
Last_SST;3/28/2024 12:19:13 PM +00:00
User_Name;labmanager
Measurement_Started;3/28/2024 4:36:31 PM
Measurement_Finished;3/28/2024 4:37:32 PM
Measurement_Saved;3/28/2024 4:37:32 PM
Wavelength;785
Laser_Power;10
Auto_Exposure;False
Exposure_Time;10000
Averaged_Spectra;3
Probe_Type;Regular Probe (785 nm)
Probe_SN;99101107
Dark_Background;True
User_Background_Spectrum;
Spike_Removal;True
Baseline_Correction;False
Smoothing;False
Normalization;None
[SPECTRUM QUALITY]
Quality_Saturation;False
Quality_SBR;NaN
Quality_Temperature;False
[SPECTRUM]
100.00;7784.76
108.00;6620.61
116.00;5197.22
124.00;3755.73
132.00;2634.39
140.00;1877.15
148.00;1418.79
156.00;1142.39
164.00;960.00
172.00;837.70
180.00;752.95
188.00;688.59
196.00;635.59
204.00;605.18
212.00;592.30
220.00;589.90
228.00;585.42
236.00;584.51
244.00;590.06
252.00;614.03
260.00;660.63
268.00;736.08
276.00;840.56
284.00;864.82
292.00;778.71
300.00;702.71
308.00;644.80
316.00;584.46
324.00;552.37
332.00;542.50
340.00;536.26
348.00;539.85
356.00;542.88
364.00;540.68
372.00;532.41
380.00;520.77
388.00;521.49
396.00;519.61
404.00;525.16
412.00;535.37
420.00;548.09
428.00;565.77
436.00;596.88
444.00;621.50
452.00;612.84
460.00;575.89
468.00;525.11
476.00;479.41
484.00;452.54
492.00;432.72
500.00;424.33
508.00;421.01
516.00;415.81
524.00;416.25
532.00;421.59
540.00;420.53
548.00;426.72
556.00;428.82
564.00;436.26
572.00;448.65
580.00;466.05
588.00;487.09
596.00;537.19
604.00;595.16
612.00;647.36
620.00;651.35
628.00;636.20
636.00;634.70
644.00;610.33
652.00;586.15
660.00;484.21
668.00;448.19
676.00;456.86
684.00;479.68
692.00;513.16
700.00;518.77
708.00;565.20
716.00;535.09
724.00;428.40
732.00;388.74
740.00;376.29
748.00;370.94
756.00;370.76
764.00;369.18
772.00;362.42
780.00;359.60
788.00;367.17
796.00;378.81
804.00;388.51
812.00;394.37
820.00;397.30
828.00;397.01
836.00;400.39
844.00;406.80
852.00;407.86
860.00;398.27
868.00;392.86
876.00;395.82
884.00;393.95
892.00;395.27
900.00;378.83
908.00;359.79
916.00;355.84
924.00;350.98
932.00;349.48
940.00;349.22
948.00;351.07
956.00;368.36
964.00;377.31
972.00;375.39
980.00;363.46
988.00;349.73
996.00;345.61
1004.00;343.89
1012.00;344.63
1020.00;364.08
1028.00;397.80
1036.00;544.37
1044.00;535.74
1052.00;410.79
1060.00;395.89
1068.00;420.72
1076.00;486.18
1084.00;1438.72
1092.00;843.89
1100.00;418.52
1108.00;376.12
1116.00;379.37
1124.00;396.53
1132.00;392.61
1140.00;377.24
1148.00;364.58
1156.00;382.55
1164.00;440.99
1172.00;390.40
1180.00;362.71
1188.00;352.19
1196.00;348.06
1204.00;345.19
1212.00;344.49
1220.00;343.11
1228.00;347.10
1236.00;361.49
1244.00;382.05
1252.00;404.27
1260.00;428.59
1268.00;463.09
1276.00;487.31
1284.00;500.66
1292.00;515.77
1300.00;532.66
1308.00;512.18
1316.00;469.40
1324.00;452.34
1332.00;440.08
1340.00;422.28
1348.00;406.28
1356.00;393.61
1364.00;384.98
1372.00;378.26
1380.00;372.17
1388.00;377.68
1396.00;360.30
1404.00;352.75
1412.00;362.81
1420.00;404.75
1428.00;491.98
1436.00;592.15
1444.00;598.31
1452.00;568.52
1460.00;539.34
1468.00;480.15
1476.00;409.05
1484.00;376.92
1492.00;369.92
1500.00;346.21
1508.00;343.99
1516.00;328.02
1524.00;326.82
1532.00;323.80
1540.00;330.75
1548.00;328.28
1556.00;323.20
1564.00;337.13
1572.00;355.54
1580.00;414.16
1588.00;386.95
1596.00;459.56
1604.00;484.08
1612.00;362.31
1620.00;332.30
1628.00;323.17
1636.00;308.35
1644.00;309.16
1652.00;305.58
1660.00;305.72
1668.00;309.79
1676.00;303.00
1684.00;302.69
1692.00;305.98
1700.00;310.63
1708.00;329.03
1716.00;393.24
1724.00;456.18
1732.00;443.08
1740.00;386.32
1748.00;353.03
1756.00;311.51
1764.00;290.92
1772.00;291.45
1780.00;280.54
1788.00;278.34
1796.00;274.90
1804.00;271.68
1812.00;273.68
1820.00;268.70
1828.00;269.98
1836.00;264.69
1844.00;265.09
1852.00;254.21
1860.00;255.93
1868.00;248.40
1876.00;249.40
1884.00;245.67
1892.00;249.51
1900.00;250.88
1908.00;250.13
1916.00;247.55
1924.00;243.26
1932.00;243.50
1940.00;242.64
1948.00;243.33
1956.00;249.33
1964.00;247.00
1972.00;245.82
1980.00;237.52
1988.00;233.08
1996.00;242.00
2004.00;240.67
2012.00;237.57
2020.00;241.36
2028.00;240.82
2036.00;237.19
2044.00;245.89
2052.00;243.68
2060.00;229.72
2068.00;228.07
2076.00;230.45
2084.00;247.78
2092.00;229.82
2100.00;240.51
2108.00;237.56
2116.00;246.67
2124.00;242.99
2132.00;249.14
2140.00;236.43
2148.00;238.26
2156.00;237.93
2164.00;239.77
2172.00;249.21
2180.00;245.44
2188.00;245.24
2196.00;253.50
2204.00;256.23
2212.00;251.72
2220.00;257.57
2228.00;249.56
2236.00;241.11
2244.00;251.70
2252.00;253.26
2260.00;256.24
2268.00;253.39
2276.00;267.32
2284.00;254.77
2292.00;270.72
2300.00;256.30
[ANALYSIS RESULT]
Analysis_Type;None