Folder: MSB_BMELab/Group1/Raman/data

Note: Group1/Raman/README
In this folder you find your Raman measurements, sorted by folders per sample and zones.

File: pmma_1.csv
AP Cora 5001
Software_Version;1.4.1
[SAMPLE]
Sample_Name;pmma_1
Method;
[PARAMETERS]
Instrument_Type;Cora 5001
Instrument_SN;99119713
Last_SST;3/7/2024 1:00:25 PM +00:00
User_Name;labmanager
Measurement_Started;3/7/2024 2:30:54 PM
Measurement_Finished;3/7/2024 2:31:55 PM
Measurement_Saved;3/7/2024 2:31:55 PM
Wavelength;785
Laser_Power;10
Auto_Exposure;False
Exposure_Time;10000
Averaged_Spectra;3
Probe_Type;Regular Probe (785 nm)
Probe_SN;99101107
Dark_Background;True
User_Background_Spectrum;
Spike_Removal;True
Baseline_Correction;False
Smoothing;False
Normalization;None
[SPECTRUM QUALITY]
Quality_Saturation;False
Quality_SBR;NaN
Quality_Temperature;False
[SPECTRUM]
100.00;8215.74
108.00;7091.25
116.00;5473.53
124.00;3865.81
132.00;2560.13
140.00;1630.74
148.00;996.77
156.00;620.36
164.00;414.00
172.00;314.88
180.00;257.62
188.00;225.90
196.00;206.61
204.00;195.70
212.00;189.07
220.00;178.17
228.00;179.67
236.00;173.59
244.00;166.96
252.00;165.84
260.00;154.32
268.00;158.10
276.00;157.10
284.00;158.76
292.00;164.80
300.00;173.60
308.00;163.91
316.00;150.51
324.00;142.07
332.00;140.55
340.00;142.51
348.00;155.76
356.00;173.29
364.00;188.87
372.00;181.33
380.00;168.61
388.00;152.79
396.00;139.03
404.00;123.27
412.00;114.07
420.00;106.22
428.00;103.84
436.00;101.02
444.00;103.41
452.00;107.87
460.00;110.53
468.00;120.49
476.00;145.82
484.00;157.07
492.00;155.51
500.00;134.78
508.00;122.26
516.00;112.50
524.00;102.69
532.00;103.68
540.00;105.69
548.00;117.59
556.00;130.14
564.00;134.22
572.00;135.37
580.00;153.13
588.00;199.17
596.00;276.25
604.00;285.99
612.00;207.06
620.00;159.12
628.00;126.01
636.00;113.48
644.00;100.79
652.00;96.64
660.00;91.94
668.00;88.13
676.00;81.16
684.00;80.24
692.00;80.41
700.00;78.70
708.00;79.62
716.00;79.84
724.00;91.18
732.00;107.61
740.00;98.50
748.00;97.08
756.00;103.89
764.00;112.99
772.00;123.36
780.00;128.59
788.00;142.95
796.00;173.81
804.00;294.41
812.00;596.05
820.00;288.09
828.00;167.74
836.00;149.72
844.00;149.31
852.00;137.36
860.00;129.71
868.00;128.33
876.00;134.34
884.00;134.52
892.00;133.25
900.00;139.31
908.00;150.20
916.00;152.95
924.00;145.49
932.00;142.58
940.00;156.76
948.00;170.40
956.00;216.67
964.00;273.89
972.00;270.00
980.00;268.34
988.00;278.30
996.00;267.83
1004.00;224.60
1012.00;107.70
1020.00;96.22
1028.00;88.43
1036.00;75.78
1044.00;78.38
1052.00;79.93
1060.00;94.55
1068.00;95.04
1076.00;90.24
1084.00;84.14
1092.00;97.45
1100.00;104.70
1108.00;120.69
1116.00;142.94
1124.00;156.94
1132.00;137.93
1140.00;124.77
1148.00;132.49
1156.00;153.66
1164.00;146.71
1172.00;153.53
1180.00;168.45
1188.00;162.85
1196.00;156.79
1204.00;143.47
1212.00;131.67
1220.00;125.20
1228.00;134.44
1236.00;145.32
1244.00;138.75
1252.00;125.44
1260.00;104.87
1268.00;101.87
1276.00;91.56
1284.00;91.96
1292.00;84.75
1300.00;91.39
1308.00;97.57
1316.00;105.55
1324.00;111.67
1332.00;108.55
1340.00;104.70
1348.00;96.98
1356.00;94.74
1364.00;95.18
1372.00;94.06
1380.00;103.04
1388.00;120.29
1396.00;115.88
1404.00;103.82
1412.00;109.73
1420.00;126.63
1428.00;175.94
1436.00;252.51
1444.00;348.87
1452.00;389.14
1460.00;356.31
1468.00;278.91
1476.00;207.57
1484.00;187.81
1492.00;157.95
1500.00;114.40
1508.00;97.71
1516.00;93.16
1524.00;92.67
1532.00;82.73
1540.00;81.89
1548.00;86.77
1556.00;86.38
1564.00;78.98
1572.00;83.34
1580.00;87.02
1588.00;93.86
1596.00;115.34
1604.00;132.80
1612.00;100.40
1620.00;90.76
1628.00;86.25
1636.00;84.63
1644.00;84.24
1652.00;70.12
1660.00;74.82
1668.00;76.09
1676.00;77.11
1684.00;78.07
1692.00;78.43
1700.00;91.29
1708.00;102.29
1716.00;150.89
1724.00;216.55
1732.00;213.25
1740.00;174.35
1748.00;122.90
1756.00;94.77
1764.00;74.97
1772.00;73.92
1780.00;73.26
1788.00;78.49
1796.00;79.42
1804.00;66.37
1812.00;71.28
1820.00;65.20
1828.00;65.42
1836.00;69.39
1844.00;66.56
1852.00;64.84
1860.00;60.29
1868.00;69.86
1876.00;61.18
1884.00;60.63
1892.00;55.40
1900.00;62.89
1908.00;68.96
1916.00;58.47
1924.00;59.54
1932.00;61.09
1940.00;67.06
1948.00;58.26
1956.00;58.13
1964.00;66.09
1972.00;64.69
1980.00;55.77
1988.00;68.54
1996.00;59.17
2004.00;65.84
2012.00;67.58
2020.00;62.22
2028.00;67.73
2036.00;62.67
2044.00;66.69
2052.00;56.49
2060.00;61.15
2068.00;62.80
2076.00;62.01
2084.00;61.82
2092.00;65.08
2100.00;66.42
2108.00;50.10
2116.00;68.22
2124.00;63.57
2132.00;58.55
2140.00;66.18
2148.00;56.45
2156.00;55.66
2164.00;74.45
2172.00;71.02
2180.00;70.42
2188.00;59.87
2196.00;72.38
2204.00;65.82
2212.00;66.30
2220.00;55.83
2228.00;77.92
2236.00;68.48
2244.00;66.29
2252.00;78.05
2260.00;70.94
2268.00;59.26
2276.00;71.44
2284.00;50.90
2292.00;76.21
2300.00;55.00
[ANALYSIS RESULT]
Analysis_Type;None