Folder: MSB_BMELab/114-CorticalBoneElasticity/Group4/01_Raman/data

Note: README.md
# MSB_BMELab
Repository used for the BME labs of the musculo-skeletal biomechanics group

File: Polystyrene.csv
AP Cora 5001
Software_Version;1.4.1
[SAMPLE]
Sample_Name;Polystyrene
Method;
[PARAMETERS]
Instrument_Type;Cora 5001
Instrument_SN;99119713
Last_SST;5/23/2024 9:27:06 AM +00:00
User_Name;labmanager
Measurement_Started;5/23/2024 2:04:23 PM
Measurement_Finished;5/23/2024 2:04:54 PM
Measurement_Saved;5/23/2024 2:04:54 PM
Wavelength;785
Laser_Power;10
Auto_Exposure;False
Exposure_Time;5000
Averaged_Spectra;3
Probe_Type;Regular Probe (785 nm)
Probe_SN;99101107
Dark_Background;True
User_Background_Spectrum;
Spike_Removal;True
Baseline_Correction;False
Smoothing;False
Normalization;None
[SPECTRUM QUALITY]
Quality_Saturation;False
Quality_SBR;NaN
Quality_Temperature;False
[SPECTRUM]
100.00;1301.84
108.00;1383.99
116.00;1365.03
124.00;1266.66
132.00;1124.53
140.00;981.82
148.00;838.59
156.00;732.79
164.00;649.08
172.00;588.91
180.00;534.36
188.00;497.52
196.00;469.29
204.00;465.39
212.00;476.53
220.00;470.36
228.00;440.40
236.00;377.52
244.00;302.62
252.00;232.10
260.00;186.83
268.00;148.29
276.00;125.52
284.00;106.32
292.00;99.22
300.00;87.20
308.00;79.43
316.00;77.28
324.00;77.18
332.00;73.97
340.00;73.20
348.00;67.73
356.00;71.23
364.00;69.24
372.00;73.04
380.00;81.23
388.00;93.58
396.00;102.19
404.00;114.07
412.00;113.61
420.00;101.02
428.00;86.26
436.00;76.55
444.00;67.40
452.00;57.15
460.00;48.02
468.00;42.27
476.00;40.07
484.00;38.33
492.00;37.40
500.00;37.40
508.00;38.80
516.00;41.07
524.00;48.02
532.00;57.60
540.00;64.30
548.00;67.15
556.00;64.81
564.00;60.72
572.00;57.36
580.00;53.42
588.00;50.67
596.00;51.79
604.00;56.61
612.00;104.46
620.00;293.36
628.00;151.77
636.00;84.90
644.00;52.34
652.00;38.09
660.00;32.55
668.00;29.69
676.00;31.45
684.00;28.41
692.00;35.18
700.00;44.42
708.00;47.21
716.00;42.71
724.00;49.87
732.00;63.57
740.00;105.56
748.00;139.17
756.00;171.02
764.00;172.01
772.00;158.38
780.00;175.04
788.00;255.92
796.00;300.59
804.00;218.79
812.00;143.21
820.00;96.72
828.00;80.30
836.00;98.91
844.00;102.71
852.00;85.75
860.00;78.22
868.00;82.11
876.00;75.93
884.00;75.66
892.00;80.46
900.00;97.66
908.00;100.08
916.00;72.21
924.00;59.91
932.00;59.70
940.00;64.33
948.00;68.22
956.00;79.56
964.00;98.43
972.00;117.84
980.00;183.37
988.00;378.97
996.00;1332.55
1004.00;2107.33
1012.00;397.04
1020.00;270.43
1028.00;651.57
1036.00;565.78
1044.00;235.69
1052.00;164.44
1060.00;157.95
1068.00;172.66
1076.00;166.05
1084.00;151.23
1092.00;146.14
1100.00;136.99
1108.00;96.63
1116.00;71.10
1124.00;54.14
1132.00;56.75
1140.00;82.58
1148.00;177.99
1156.00;330.84
1164.00;211.05
1172.00;240.75
1180.00;455.38
1188.00;439.73
1196.00;465.96
1204.00;426.65
1212.00;269.64
1220.00;187.46
1228.00;162.03
1236.00;133.21
1244.00;106.68
1252.00;94.63
1260.00;87.93
1268.00;85.26
1276.00;82.45
1284.00;86.97
1292.00;101.04
1300.00;122.68
1308.00;133.98
1316.00;152.43
1324.00;186.62
1332.00;181.31
1340.00;135.35
1348.00;111.02
1356.00;98.31
1364.00;104.58
1372.00;96.77
1380.00;70.72
1388.00;48.17
1396.00;46.71
1404.00;54.42
1412.00;50.72
1420.00;47.00
1428.00;56.72
1436.00;94.43
1444.00;178.72
1452.00;205.06
1460.00;96.87
1468.00;53.57
1476.00;36.34
1484.00;36.67
1492.00;44.39
1500.00;39.18
1508.00;32.44
1516.00;29.36
1524.00;30.29
1532.00;31.22
1540.00;34.70
1548.00;39.29
1556.00;44.53
1564.00;59.47
1572.00;93.56
1580.00;260.81
1588.00;266.94
1596.00;379.09
1604.00;659.41
1612.00;287.32
1620.00;133.90
1628.00;125.32
1636.00;91.52
1644.00;52.62
1652.00;41.25
1660.00;35.24
1668.00;33.20
1676.00;32.82
1684.00;29.94
1692.00;27.86
1700.00;29.33
1708.00;24.45
1716.00;25.49
1724.00;25.26
1732.00;18.13
1740.00;22.37
1748.00;21.68
1756.00;27.44
1764.00;23.18
1772.00;23.37
1780.00;21.32
1788.00;18.22
1796.00;24.10
1804.00;20.85
1812.00;22.26
1820.00;24.13
1828.00;21.96
1836.00;19.17
1844.00;16.88
1852.00;20.31
1860.00;22.05
1868.00;14.32
1876.00;16.41
1884.00;25.58
1892.00;21.00
1900.00;20.38
1908.00;22.54
1916.00;24.94
1924.00;22.79
1932.00;17.59
1940.00;24.72
1948.00;17.93
1956.00;19.97
1964.00;22.64
1972.00;22.56
1980.00;25.26
1988.00;18.76
1996.00;26.55
2004.00;24.75
2012.00;18.01
2020.00;19.92
2028.00;23.77
2036.00;27.57
2044.00;25.17
2052.00;20.38
2060.00;19.50
2068.00;24.60
2076.00;20.10
2084.00;20.35
2092.00;34.56
2100.00;22.16
2108.00;17.92
2116.00;25.37
2124.00;25.01
2132.00;20.66
2140.00;15.00
2148.00;25.43
2156.00;32.22
2164.00;25.89
2172.00;19.42
2180.00;35.11
2188.00;20.31
2196.00;41.34
2204.00;32.08
2212.00;31.40
2220.00;37.42
2228.00;27.69
2236.00;31.64
2244.00;26.58
2252.00;32.74
2260.00;25.03
2268.00;18.02
2276.00;22.64
2284.00;30.91
2292.00;28.85
2300.00;40.40
[ANALYSIS RESULT]
Analysis_Type;None